# ASTM E-490 AM0 Standard Spectra	
# Wavelength (micron)	W*m^{-2}*nm^{-1}
0.1195	0.0000619
0.1205	0.0005614
0.1215	0.004901
0.1225	0.001184
0.1235	0.0000477
0.1245	0.0000343
0.1255	0.0000288
0.1265	0.0000352
0.1275	0.0000213
0.1285	0.0000173
0.1295	0.0000399
0.1305	0.0001206
0.1315	0.0000398
0.1325	0.0000413
0.1335	0.000168
0.1345	0.0000457
0.1355	0.000038
0.1365	0.0000309
0.1375	0.0000292
0.1385	0.0000397
0.1395	0.0000756
0.1405	0.0000608
0.1415	0.0000421
0.1425	0.0000468
0.1435	0.0000511
0.1445	0.0000509
0.1455	0.0000554
0.1465	0.0000709
0.1475	0.0000849
0.1485	0.000082
0.1495	0.0000796
0.1505	0.000087
0.1515	0.0000927
0.1525	0.0001163
0.1535	0.0001299
0.1545	0.0002059
0.1555	0.0002144
0.1565	0.0001847
0.1575	0.0001717
0.1585	0.0001675
0.1595	0.0001754
0.1605	0.0001934
0.1615	0.0002228
0.1625	0.0002519
0.1635	0.0002841
0.1645	0.0002973
0.1655	0.0004302
0.1665	0.0003989
0.1675	0.0003875
0.1685	0.0004556
0.1695	0.0005877
0.1705	0.0006616
0.1715	0.000688
0.1725	0.0007252
0.1735	0.0007645
0.1745	0.0009067
0.1755	0.001079
0.1765	0.00122
0.1775	0.001403
0.1785	0.001538
0.1795	0.001576
0.1805	0.001831
0.1815	0.002233
0.1825	0.002243
0.1835	0.002244
0.1845	0.002066
0.1855	0.002311
0.1865	0.0027
0.1875	0.003009
0.1885	0.003291
0.1895	0.003569
0.1905	0.003764
0.1915	0.004165
0.1925	0.004113
0.1935	0.003808
0.1945	0.00521
0.1955	0.005427
0.1965	0.006008
0.1975	0.006191
0.1985	0.006187
0.1995	0.006664
0.2005	0.007326
0.2015	0.008023
0.2025	0.008261
0.2035	0.009217
0.2045	0.01025
0.2055	0.01054
0.2065	0.01108
0.2075	0.01265
0.2085	0.01505
0.2095	0.02138
0.2105	0.02792
0.2115	0.03354
0.2125	0.0313
0.2135	0.03315
0.2145	0.04003
0.2155	0.03615
0.2165	0.03227
0.2175	0.03529
0.2185	0.04437
0.2195	0.04692
0.2205	0.04733
0.2215	0.03958
0.2225	0.04965
0.2235	0.06301
0.2245	0.05897
0.2255	0.05229
0.2265	0.0394
0.2275	0.03992
0.2285	0.05195
0.2295	0.04771
0.2305	0.05212
0.2315	0.05097
0.2325	0.05326
0.2335	0.04474
0.2345	0.03897
0.2355	0.05142
0.2365	0.04859
0.2375	0.04844
0.2385	0.04196
0.2395	0.04412
0.2405	0.03956
0.2415	0.05148
0.2425	0.0706
0.2435	0.06653
0.2445	0.06097
0.2455	0.04939
0.2465	0.0504
0.2475	0.0555
0.2485	0.04565
0.2495	0.05638
0.2505	0.0601
0.2515	0.04601
0.2525	0.04155
0.2535	0.05155
0.2545	0.05957
0.2555	0.0793
0.2565	0.1018
0.2575	0.1254
0.2585	0.1251
0.2595	0.104
0.2605	0.08551
0.2615	0.0898
0.2625	0.1036
0.2635	0.1658
0.2645	0.2497
0.2655	0.2527
0.2665	0.2494
0.2675	0.2508
0.2685	0.2438
0.2695	0.2389
0.2705	0.2673
0.2715	0.2244
0.2725	0.1974
0.2735	0.1965
0.2745	0.1326
0.2755	0.1751
0.2765	0.2428
0.2775	0.2338
0.2785	0.1593
0.2795	0.08555
0.2805	0.09463
0.2815	0.2083
0.2825	0.2941
0.2835	0.3135
0.2845	0.2353
0.2855	0.1631
0.2865	0.3227
0.2875	0.3363
0.2885	0.3222
0.2895	0.4727
0.2905	0.6013
0.2915	0.5808
0.2925	0.5219
0.2935	0.5355
0.2945	0.5088
0.2955	0.5532
0.2965	0.5096
0.2975	0.5073
0.2985	0.4655
0.2995	0.484
0.3005	0.42
0.3015	0.4555
0.3025	0.489
0.3035	0.6206
0.3045	0.6025
0.3055	0.5948
0.3065	0.5557
0.3075	0.615
0.3085	0.6114
0.3095	0.4965
0.3105	0.6224
0.3115	0.7292
0.3125	0.6559
0.3135	0.6999
0.3145	0.6629
0.3155	0.633
0.3165	0.6332
0.3175	0.7739
0.3185	0.6649
0.3195	0.7105
0.3205	0.8051
0.3215	0.6995
0.3225	0.6886
0.3235	0.6613
0.3245	0.7608
0.3255	0.8758
0.3265	0.9795
0.3275	0.9527
0.3285	0.9176
0.3295	1.061
0.3305	1.016
0.3315	0.9657
0.3325	0.9549
0.3335	0.9216
0.3345	0.9589
0.3355	0.9434
0.3365	0.8095
0.3375	0.8418
0.3385	0.9215
0.3395	0.9581
0.3405	1.007
0.3415	0.9238
0.3425	0.993
0.3435	0.9506
0.3445	0.7957
0.3455	0.9392
0.3465	0.9264
0.3475	0.9017
0.3485	0.8972
0.3495	0.8898
0.3505	1.05
0.3515	0.9795
0.3525	0.9079
0.3535	1.033
0.3545	1.111
0.3555	1.045
0.3565	0.9123
0.3575	0.796
0.3585	0.6936
0.3595	0.9911
0.3605	0.9708
0.3615	0.8781
0.3625	0.9978
0.3635	0.9969
0.3645	1.013
0.3655	1.152
0.3665	1.233
0.3675	1.18
0.3685	1.101
0.3695	1.226
0.3705	1.139
0.3715	1.175
0.3725	1.054
0.3735	0.9202
0.3745	0.9004
0.3755	1.062
0.3765	1.085
0.3775	1.282
0.3785	1.327
0.3795	1.066
0.3805	1.202
0.3815	1.082
0.3825	0.7913
0.3835	0.6841
0.3845	0.9597
0.3855	1.008
0.3865	1.007
0.3875	1.004
0.3885	0.9843
0.3895	1.174
0.3905	1.247
0.3915	1.342
0.3925	1.019
0.3935	0.5823
0.3945	1.026
0.3955	1.314
0.3965	0.8545
0.3975	0.9288
0.3985	1.522
0.3995	1.663
0.4005	1.682
0.4015	1.746
0.4025	1.759
0.4035	1.684
0.4045	1.674
0.4055	1.667
0.4065	1.589
0.4075	1.628
0.4085	1.735
0.4095	1.715
0.4105	1.532
0.4115	1.817
0.4125	1.789
0.4135	1.756
0.4145	1.737
0.4155	1.734
0.4165	1.842
0.4175	1.665
0.4185	1.684
0.4195	1.701
0.4205	1.757
0.4215	1.797
0.4225	1.582
0.4235	1.711
0.4245	1.767
0.4255	1.695
0.4265	1.698
0.4275	1.569
0.4285	1.587
0.4295	1.475
0.4305	1.135
0.4315	1.686
0.4325	1.646
0.4335	1.731
0.4345	1.67
0.4355	1.723
0.4365	1.929
0.4375	1.806
0.4385	1.567
0.4395	1.825
0.4405	1.713
0.4415	1.931
0.4425	1.98
0.4435	1.909
0.4445	1.973
0.4455	1.821
0.4465	1.891
0.4475	2.077
0.4485	1.973
0.4495	2.027
0.4505	2.144
0.4515	2.109
0.4525	1.941
0.4535	1.97
0.4545	1.979
0.4555	2.034
0.4565	2.077
0.4575	2.1
0.4585	1.971
0.4595	2.009
0.4605	2.04
0.4615	2.055
0.4625	2.104
0.4635	2.04
0.4645	1.976
0.4655	2.042
0.4665	1.921
0.4675	2.015
0.4685	1.994
0.4695	1.99
0.4705	1.877
0.4715	2.018
0.4725	2.041
0.4735	1.991
0.4745	2.051
0.4755	2.016
0.4765	1.956
0.4775	2.075
0.4785	2.009
0.4795	2.076
0.4805	2.035
0.4815	2.09
0.4825	2.023
0.4835	2.019
0.4845	1.969
0.4855	1.83
0.4865	1.625
0.4875	1.83
0.4885	1.914
0.4895	1.96
0.4905	2.007
0.4915	1.896
0.4925	1.896
0.4935	1.888
0.4945	2.058
0.4955	1.926
0.4965	2.017
0.4975	2.018
0.4985	1.866
0.4995	1.97
0.5005	1.857
0.5015	1.812
0.5025	1.894
0.5035	1.934
0.5045	1.869
0.5055	1.993
0.5065	1.961
0.5075	1.906
0.5085	1.919
0.5095	1.916
0.5105	1.947
0.5115	1.997
0.5125	1.867
0.5135	1.861
0.5145	1.874
0.5155	1.9
0.5165	1.669
0.5175	1.726
0.5185	1.654
0.5195	1.828
0.5205	1.831
0.5215	1.906
0.5225	1.823
0.5235	1.894
0.5245	1.958
0.5255	1.93
0.5265	1.674
0.5275	1.828
0.5285	1.897
0.5295	1.918
0.5305	1.952
0.5315	1.963
0.5325	1.77
0.5335	1.923
0.5345	1.858
0.5355	1.99
0.5365	1.871
0.5375	1.882
0.5385	1.904
0.5395	1.832
0.5405	1.769
0.5415	1.881
0.5425	1.825
0.5435	1.879
0.5445	1.879
0.5455	1.901
0.5465	1.879
0.5475	1.833
0.5485	1.863
0.5495	1.895
0.5505	1.862
0.5515	1.871
0.5525	1.846
0.5535	1.882
0.5545	1.898
0.5555	1.897
0.5565	1.821
0.5575	1.846
0.5585	1.787
0.5595	1.808
0.5605	1.843
0.5615	1.824
0.5625	1.85
0.5635	1.861
0.5645	1.854
0.5655	1.798
0.5665	1.829
0.5675	1.887
0.5685	1.81
0.5695	1.86
0.5705	1.769
0.5715	1.823
0.5725	1.892
0.5735	1.876
0.5745	1.867
0.5755	1.83
0.5765	1.846
0.5775	1.857
0.5785	1.783
0.5795	1.828
0.5805	1.838
0.5815	1.853
0.5825	1.873
0.5835	1.857
0.5845	1.86
0.5855	1.783
0.5865	1.83
0.5875	1.848
0.5885	1.75
0.5895	1.612
0.5905	1.813
0.5915	1.787
0.5925	1.808
0.5935	1.796
0.5945	1.773
0.5955	1.782
0.5965	1.805
0.5975	1.78
0.5985	1.757
0.5995	1.774
0.6005	1.746
0.6015	1.751
0.6025	1.719
0.6035	1.787
0.6045	1.776
0.6055	1.763
0.6065	1.759
0.6075	1.757
0.6085	1.743
0.6095	1.744
0.6105	1.703
0.6115	1.746
0.6125	1.705
0.6135	1.683
0.6145	1.713
0.6155	1.713
0.6165	1.609
0.6175	1.707
0.6185	1.724
0.6195	1.707
0.6205	1.734
0.6215	1.69
0.6225	1.713
0.6235	1.666
0.6245	1.656
0.6255	1.632
0.6265	1.697
0.6275	1.697
0.6285	1.697
0.6295	1.677
0.631	1.639
0.633	1.651
0.635	1.656
0.637	1.654
0.639	1.651
0.641	1.614
0.643	1.621
0.645	1.627
0.647	1.603
0.649	1.558
0.651	1.606
0.653	1.599
0.655	1.532
0.657	1.384
0.659	1.549
0.661	1.571
0.663	1.555
0.665	1.56
0.667	1.535
0.669	1.546
0.671	1.516
0.673	1.521
0.675	1.51
0.677	1.508
0.679	1.498
0.681	1.492
0.683	1.479
0.685	1.455
0.687	1.467
0.689	1.461
0.691	1.448
0.693	1.448
0.695	1.436
0.697	1.416
0.699	1.425
0.701	1.386
0.703	1.388
0.705	1.415
0.707	1.4
0.709	1.384
0.711	1.385
0.713	1.373
0.715	1.366
0.717	1.354
0.719	1.328
0.721	1.331
0.723	1.348
0.725	1.35
0.727	1.346
0.729	1.319
0.731	1.326
0.733	1.318
0.735	1.309
0.737	1.307
0.739	1.278
0.741	1.258
0.743	1.286
0.745	1.279
0.747	1.283
0.749	1.27
0.751	1.262
0.753	1.259
0.755	1.255
0.757	1.248
0.759	1.24
0.761	1.237
0.763	1.241
0.765	1.221
0.767	1.185
0.769	1.203
0.771	1.204
0.773	1.208
0.775	1.188
0.777	1.196
0.779	1.187
0.781	1.187
0.783	1.176
0.785	1.18
0.787	1.177
0.789	1.174
0.791	1.158
0.793	1.143
0.795	1.134
0.797	1.152
0.799	1.135
0.801	1.142
0.803	1.129
0.805	1.115
0.807	1.12
0.809	1.095
0.811	1.114
0.813	1.115
0.815	1.107
0.817	1.104
0.819	1.063
0.821	1.08
0.823	1.073
0.825	1.075
0.826	1.08
0.828	1.081
0.83	1.063
0.832	1.051
0.834	1.041
0.836	1.052
0.838	1.044
0.84	1.04
0.842	1.036
0.844	1.024
0.846	1.028
0.848	1.023
0.85	0.966
0.852	0.9961
0.854	0.878
0.856	0.9755
0.858	1.005
0.86	0.9969
0.862	0.9949
0.864	0.9993
0.866	0.8862
0.868	0.9395
0.87	0.9747
0.872	0.9833
0.874	0.9713
0.876	0.964
0.878	0.9749
0.88	0.9554
0.882	0.9511
0.884	0.9579
0.886	0.9383
0.888	0.9443
0.89	0.953
0.892	0.9394
0.894	0.9332
0.896	0.9387
0.898	0.9339
0.9	0.9158
0.902	0.8916
0.904	0.9285
0.906	0.9176
0.908	0.9025
0.91	0.8916
0.912	0.8967
0.914	0.9071
0.916	0.9004
0.918	0.8951
0.92	0.8908
0.922	0.863
0.924	0.8585
0.926	0.8612
0.928	0.8769
0.93	0.8677
0.932	0.8651
0.934	0.8641
0.936	0.8547
0.938	0.858
0.94	0.8438
0.942	0.825
0.944	0.8324
0.946	0.8375
0.948	0.8407
0.95	0.8369
0.952	0.8317
0.954	0.808
0.956	0.8082
0.958	0.8188
0.96	0.8151
0.962	0.8089
0.964	0.8013
0.966	0.7947
0.968	0.7969
0.97	0.7959
0.972	0.7936
0.974	0.7815
0.976	0.7825
0.978	0.7779
0.98	0.7746
0.982	0.7764
0.984	0.7698
0.986	0.7661
0.988	0.7615
0.99	0.7541
0.992	0.7567
0.994	0.7556
0.996	0.7525
0.998	0.751
1	0.7479
1.002	0.7469
1.004	0.7261
1.006	0.7136
1.008	0.7335
1.01	0.7313
1.012	0.7262
1.014	0.721
1.016	0.7139
1.018	0.7107
1.02	0.7041
1.022	0.7021
1.024	0.7054
1.026	0.7027
1.028	0.6989
1.03	0.6937
1.032	0.6905
1.034	0.6817
1.036	0.684
1.038	0.6772
1.04	0.6761
1.042	0.6746
1.044	0.6714
1.046	0.66
1.048	0.6644
1.05	0.6622
1.052	0.6586
1.054	0.6549
1.056	0.6557
1.058	0.6451
1.06	0.6415
1.062	0.6438
1.064	0.6459
1.066	0.6395
1.068	0.6317
1.07	0.6241
1.072	0.6326
1.074	0.6276
1.076	0.628
1.078	0.6272
1.08	0.6247
1.082	0.6099
1.084	0.618
1.086	0.6208
1.088	0.6103
1.09	0.6199
1.092	0.6159
1.094	0.5849
1.096	0.5983
1.098	0.5961
1.1	0.6042
1.102	0.5932
1.104	0.5974
1.106	0.5945
1.108	0.5916
1.11	0.5906
1.112	0.5843
1.114	0.5844
1.116	0.5831
1.118	0.5815
1.12	0.5741
1.122	0.5796
1.124	0.5769
1.126	0.5655
1.128	0.57
1.13	0.5653
1.132	0.5678
1.134	0.5638
1.136	0.5658
1.138	0.5569
1.14	0.553
1.142	0.5531
1.144	0.5514
1.146	0.5548
1.148	0.5525
1.15	0.5489
1.152	0.5458
1.154	0.5479
1.156	0.5455
1.158	0.5435
1.16	0.532
1.162	0.5325
1.164	0.5332
1.166	0.5303
1.168	0.5312
1.17	0.5276
1.172	0.5315
1.174	0.5273
1.176	0.5184
1.178	0.519
1.18	0.5239
1.182	0.5159
1.184	0.5103
1.186	0.5187
1.188	0.5075
1.19	0.5085
1.192	0.5161
1.194	0.5145
1.196	0.5084
1.198	0.4943
1.2	0.5003
1.202	0.5068
1.204	0.4948
1.206	0.5039
1.208	0.489
1.21	0.4882
1.212	0.4933
1.214	0.4942
1.216	0.493
1.218	0.4897
1.22	0.4875
1.222	0.4854
1.224	0.4846
1.226	0.4817
1.228	0.4771
1.23	0.4792
1.232	0.475
1.234	0.4729
1.236	0.4719
1.238	0.4703
1.24	0.4653
1.242	0.4642
1.244	0.4619
1.246	0.4635
1.248	0.4633
1.25	0.4624
1.252	0.4571
1.254	0.4574
1.256	0.4551
1.258	0.4533
1.26	0.453
1.262	0.4497
1.264	0.4478
1.266	0.4467
1.268	0.4417
1.27	0.4453
1.272	0.4452
1.274	0.4431
1.276	0.4451
1.278	0.444
1.28	0.4356
1.282	0.4014
1.284	0.4259
1.286	0.4328
1.288	0.4314
1.29	0.4255
1.292	0.4254
1.294	0.4223
1.296	0.4224
1.298	0.4184
1.3	0.4186
1.302	0.4139
1.304	0.4111
1.306	0.4136
1.308	0.4123
1.31	0.4106
1.312	0.4033
1.314	0.4022
1.316	0.3979
1.318	0.4017
1.32	0.4016
1.322	0.3986
1.324	0.3981
1.326	0.3949
1.328	0.3908
1.33	0.3878
1.332	0.3863
1.334	0.3892
1.336	0.3866
1.338	0.3832
1.34	0.379
1.342	0.3805
1.344	0.3798
1.346	0.3772
1.348	0.3766
1.35	0.3724
1.352	0.3742
1.354	0.3722
1.356	0.3675
1.358	0.3688
1.36	0.3673
1.362	0.3677
1.364	0.3657
1.366	0.3657
1.368	0.3628
1.37	0.3599
1.372	0.3621
1.374	0.3611
1.376	0.3561
1.378	0.358
1.38	0.3579
1.382	0.3545
1.384	0.3547
1.386	0.3532
1.388	0.353
1.39	0.3506
1.392	0.3513
1.394	0.3488
1.396	0.3487
1.398	0.3492
1.4	0.3427
1.402	0.3439
1.404	0.3428
1.406	0.3431
1.408	0.3427
1.41	0.3418
1.412	0.3348
1.414	0.3377
1.416	0.3385
1.418	0.3386
1.42	0.3357
1.422	0.3315
1.424	0.3311
1.426	0.3281
1.428	0.3285
1.43	0.3257
1.432	0.33
1.434	0.3284
1.436	0.3285
1.438	0.3283
1.44	0.3188
1.442	0.3186
1.444	0.3197
1.446	0.3216
1.448	0.3216
1.45	0.3187
1.452	0.3154
1.454	0.3143
1.456	0.3131
1.458	0.3167
1.46	0.3156
1.462	0.3121
1.464	0.3105
1.466	0.3108
1.468	0.3114
1.47	0.3102
1.472	0.3073
1.474	0.3034
1.476	0.3048
1.478	0.3044
1.48	0.3068
1.482	0.3044
1.484	0.3039
1.486	0.3033
1.488	0.2855
1.49	0.3015
1.492	0.3018
1.494	0.3033
1.496	0.2972
1.498	0.2994
1.5	0.3011
1.502	0.2924
1.504	0.2799
1.506	0.2848
1.508	0.2919
1.51	0.2947
1.512	0.2913
1.514	0.2883
1.516	0.2882
1.518	0.2884
1.52	0.2866
1.522	0.2824
1.524	0.2835
1.526	0.2846
1.528	0.2846
1.53	0.2765
1.532	0.2823
1.534	0.2784
1.536	0.2806
1.538	0.2773
1.54	0.273
1.542	0.2753
1.544	0.2778
1.546	0.2772
1.548	0.2711
1.55	0.2713
1.552	0.2731
1.554	0.2676
1.556	0.2671
1.558	0.2689
1.56	0.2683
1.562	0.2697
1.564	0.2669
1.566	0.2654
1.568	0.2633
1.57	0.2645
1.572	0.2673
1.574	0.261
1.576	0.2536
1.578	0.2547
1.58	0.265
1.582	0.259
1.584	0.2591
1.586	0.2599
1.588	0.249
1.59	0.2405
1.592	0.2526
1.594	0.2583
1.596	0.2506
1.598	0.2545
1.6	0.2512
1.602	0.2489
1.604	0.2497
1.606	0.2477
1.608	0.2491
1.61	0.24
1.612	0.243
1.614	0.2449
1.616	0.2374
1.618	0.2423
1.62	0.2369
1.622	0.2383
1.624	0.2416
1.626	0.2402
1.628	0.2418
1.63	0.2393
1.632	0.2387
1.634	0.2359
1.636	0.2357
1.638	0.2274
1.64	0.2262
1.642	0.2266
1.644	0.2278
1.646	0.2294
1.648	0.2292
1.65	0.2272
1.652	0.2268
1.654	0.2262
1.656	0.226
1.658	0.2252
1.66	0.2245
1.662	0.2246
1.664	0.2227
1.666	0.2212
1.668	0.2193
1.67	0.2225
1.672	0.2173
1.674	0.2193
1.676	0.2161
1.678	0.2168
1.68	0.208
1.682	0.2054
1.684	0.2129
1.686	0.2131
1.688	0.212
1.69	0.2105
1.692	0.2123
1.694	0.2112
1.696	0.21
1.698	0.2089
1.7	0.2063
1.702	0.2047
1.704	0.2052
1.706	0.205
1.708	0.2017
1.71	0.2013
1.712	0.1982
1.714	0.2037
1.716	0.2022
1.718	0.201
1.72	0.1993
1.722	0.1975
1.724	0.1954
1.726	0.1982
1.728	0.1971
1.73	0.1984
1.732	0.1936
1.734	0.1874
1.736	0.1827
1.738	0.1863
1.74	0.1905
1.742	0.1902
1.744	0.1907
1.746	0.1867
1.748	0.1872
1.75	0.1858
1.752	0.185
1.754	0.1856
1.756	0.1849
1.758	0.1843
1.76	0.1831
1.762	0.1793
1.764	0.1807
1.766	0.1817
1.768	0.1802
1.77	0.1791
1.772	0.1794
1.774	0.1792
1.776	0.1763
1.778	0.1747
1.78	0.1756
1.782	0.1747
1.784	0.1735
1.786	0.1739
1.788	0.1747
1.79	0.1733
1.792	0.1721
1.794	0.1709
1.796	0.1706
1.798	0.1703
1.8	0.1699
1.802	0.1672
1.804	0.1688
1.806	0.1688
1.808	0.1685
1.81	0.1686
1.812	0.1675
1.814	0.1658
1.816	0.1605
1.818	0.152
1.82	0.1596
1.822	0.1598
1.824	0.1624
1.826	0.1628
1.828	0.1611
1.83	0.1606
1.832	0.1593
1.834	0.1585
1.836	0.1581
1.838	0.1562
1.84	0.1562
1.842	0.154
1.844	0.1541
1.846	0.1535
1.848	0.151
1.85	0.1546
1.852	0.1534
1.854	0.1525
1.856	0.1509
1.858	0.1525
1.86	0.1503
1.862	0.1504
1.864	0.1509
1.866	0.1494
1.868	0.1492
1.87	0.1508
1.872	0.1473
1.874	0.1401
1.876	0.1299
1.878	0.1441
1.88	0.1462
1.882	0.1474
1.884	0.1464
1.886	0.1439
1.888	0.1453
1.89	0.1424
1.892	0.1408
1.894	0.1396
1.896	0.1373
1.898	0.139
1.9	0.1397
1.902	0.1409
1.904	0.1386
1.906	0.139
1.908	0.1377
1.91	0.1378
1.912	0.1354
1.914	0.137
1.916	0.136
1.918	0.1353
1.92	0.1333
1.922	0.135
1.924	0.1341
1.926	0.1344
1.928	0.1322
1.93	0.1313
1.932	0.1308
1.934	0.132
1.936	0.1328
1.938	0.1321
1.94	0.1299
1.942	0.1294
1.944	0.1203
1.946	0.1192
1.948	0.1271
1.95	0.1261
1.952	0.1255
1.954	0.1286
1.956	0.1276
1.958	0.1271
1.96	0.1261
1.962	0.124
1.964	0.1222
1.966	0.1231
1.968	0.124
1.97	0.1239
1.972	0.1213
1.974	0.1208
1.976	0.1224
1.978	0.1194
1.98	0.1196
1.982	0.1205
1.984	0.1197
1.986	0.1178
1.988	0.1195
1.99	0.1198
1.992	0.118
1.994	0.1162
1.996	0.1173
1.998	0.1159
2	0.117
2.002	0.1161
2.004	0.1148
2.006	0.1147
2.008	0.1154
2.01	0.1149
2.012	0.1145
2.014	0.1138
2.016	0.1137
2.018	0.1134
2.02	0.1116
2.022	0.1107
2.024	0.1116
2.026	0.1115
2.028	0.1107
2.03	0.1086
2.032	0.1098
2.034	0.1092
2.036	0.1083
2.038	0.1064
2.04	0.1078
2.042	0.1076
2.044	0.1076
2.046	0.1071
2.048	0.1063
2.05	0.1059
2.052	0.1047
2.054	0.1046
2.056	0.1046
2.058	0.104
2.06	0.1028
2.062	0.1023
2.064	0.1005
2.066	0.1025
2.068	0.1019
2.07	0.1003
2.072	0.1004
2.074	0.1009
2.076	0.1006
2.078	0.1
2.08	0.09878
2.082	0.09864
2.084	0.09772
2.086	0.09852
2.088	0.09835
2.09	0.09788
2.092	0.09567
2.094	0.09593
2.096	0.0958
2.098	0.0962
2.1	0.09606
2.102	0.09577
2.104	0.09559
2.106	0.09574
2.108	0.09513
2.11	0.09396
2.112	0.09452
2.114	0.09436
2.116	0.09331
2.118	0.09311
2.12	0.09275
2.122	0.09275
2.124	0.09189
2.126	0.09208
2.128	0.09225
2.13	0.09209
2.132	0.0921
2.134	0.09155
2.136	0.09012
2.138	0.0911
2.14	0.09083
2.142	0.09064
2.144	0.09006
2.146	0.08939
2.148	0.08979
2.15	0.08957
2.152	0.08913
2.154	0.08878
2.156	0.08874
2.158	0.08842
2.16	0.08781
2.162	0.08686
2.164	0.08456
2.166	0.07849
2.168	0.083
2.17	0.08557
2.172	0.08591
2.174	0.08592
2.176	0.08532
2.178	0.08425
2.18	0.08497
2.182	0.08425
2.184	0.08457
2.186	0.08465
2.188	0.08277
2.19	0.08304
2.192	0.08377
2.194	0.08349
2.196	0.08318
2.198	0.08299
2.2	0.08265
2.202	0.0823
2.204	0.08211
2.206	0.07966
2.208	0.07966
2.21	0.0808
2.212	0.08105
2.214	0.08072
2.216	0.07994
2.218	0.0797
2.22	0.07997
2.222	0.07962
2.224	0.07926
2.226	0.07811
2.228	0.07826
2.23	0.07831
2.232	0.07815
2.234	0.07802
2.236	0.07758
2.238	0.07648
2.24	0.07639
2.242	0.07642
2.244	0.07624
2.246	0.07612
2.248	0.0752
2.25	0.07541
2.252	0.07512
2.254	0.07402
2.256	0.07422
2.258	0.07441
2.26	0.07421
2.262	0.07299
2.264	0.07329
2.266	0.07315
2.268	0.07327
2.27	0.07297
2.272	0.07277
2.274	0.07252
2.276	0.07239
2.278	0.07242
2.28	0.07165
2.282	0.07007
2.284	0.07125
2.286	0.07124
2.288	0.07127
2.29	0.0711
2.292	0.07067
2.294	0.0692
2.296	0.06908
2.298	0.06919
2.3	0.06953
2.302	0.06955
2.304	0.06931
2.306	0.06923
2.308	0.06901
2.31	0.0687
2.312	0.06867
2.314	0.06826
2.316	0.06779
2.318	0.06745
2.32	0.06768
2.322	0.06675
2.324	0.06536
2.326	0.06559
2.328	0.06629
2.33	0.06616
2.332	0.06584
2.334	0.06571
2.336	0.06536
2.338	0.06496
2.34	0.0652
2.342	0.06539
2.344	0.06509
2.346	0.06486
2.348	0.06472
2.35	0.06453
2.352	0.06289
2.354	0.06239
2.356	0.06282
2.358	0.06266
2.36	0.06308
2.362	0.06305
2.364	0.06295
2.366	0.06284
2.368	0.06263
2.37	0.06211
2.372	0.06207
2.374	0.06066
2.376	0.06164
2.378	0.06192
2.38	0.06172
2.382	0.06098
2.384	0.05885
2.386	0.05908
2.388	0.06004
2.39	0.06029
2.392	0.06008
2.394	0.06003
2.396	0.05996
2.398	0.05989
2.4	0.05944
2.402	0.05965
2.404	0.05945
2.406	0.05919
2.408	0.05915
2.41	0.05902
2.412	0.05894
2.414	0.05734
2.416	0.05599
2.418	0.05748
2.42	0.0577
2.422	0.05767
2.424	0.05726
2.426	0.05717
2.428	0.05712
2.43	0.05712
2.432	0.05702
2.434	0.05641
2.436	0.05618
2.438	0.05599
2.44	0.05639
2.442	0.05617
2.444	0.05603
2.446	0.05498
2.448	0.05457
2.45	0.05462
2.452	0.05432
2.454	0.05455
2.456	0.0537
2.458	0.05392
2.46	0.05457
2.462	0.05442
2.464	0.05435
2.466	0.05405
2.468	0.0539
2.47	0.05285
2.472	0.0533
2.474	0.05313
2.476	0.05343
2.478	0.05303
2.48	0.05177
2.482	0.0514
2.484	0.05219
2.486	0.0516
2.488	0.05169
2.49	0.05225
2.492	0.05198
2.494	0.05175
2.496	0.05152
2.498	0.05154
2.5	0.05155
2.52	0.04984
2.54	0.04814
2.56	0.04672
2.58	0.0455
2.6	0.04457
2.62	0.04305
2.64	0.04211
2.66	0.04079
2.68	0.03968
2.7	0.03867
2.72	0.03763
2.74	0.03663
2.76	0.03546
2.78	0.03468
2.8	0.03385
2.82	0.03297
2.84	0.03209
2.86	0.03119
2.88	0.03032
2.9	0.02969
2.92	0.0289
2.94	0.02817
2.96	0.0275
2.98	0.02682
3	0.02612
3.02	0.02547
3.04	0.02465
3.06	0.02422
3.08	0.02364
3.1	0.02306
3.12	0.02246
3.14	0.02198
3.16	0.02144
3.18	0.02096
3.2	0.02048
3.22	0.02
3.24	0.01951
3.26	0.01907
3.28	0.01858
3.3	0.01802
3.32	0.01768
3.34	0.01737
3.36	0.01697
3.38	0.01659
3.4	0.01615
3.42	0.01584
3.44	0.01554
3.46	0.0152
3.48	0.01486
3.5	0.01456
3.52	0.01425
3.54	0.01393
3.56	0.01362
3.58	0.01334
3.6	0.01307
3.62	0.01281
3.64	0.01251
3.66	0.01222
3.68	0.01193
3.7	0.01162
3.72	0.01145
3.74	0.01108
3.76	0.01096
3.78	0.01078
3.8	0.01057
3.82	0.01038
3.84	0.01019
3.86	0.009983
3.88	0.009782
3.9	0.009599
3.92	0.009427
3.94	0.009233
3.96	0.009032
3.98	0.008857
4	0.008669
4.02	0.008557
4.04	0.008385
4.06	0.008217
4.08	0.008054
4.1	0.007894
4.12	0.007739
4.14	0.007587
4.16	0.007439
4.18	0.007294
4.2	0.007153
4.22	0.007015
4.24	0.006881
4.26	0.006749
4.28	0.006621
4.3	0.006496
4.32	0.006374
4.34	0.006254
4.36	0.006138
4.38	0.006024
4.4	0.005913
4.42	0.005804
4.44	0.005698
4.46	0.005594
4.48	0.005492
4.5	0.005393
4.52	0.005296
4.54	0.005201
4.56	0.005108
4.58	0.005018
4.6	0.004929
4.62	0.004842
4.64	0.004757
4.66	0.004674
4.68	0.004593
4.7	0.004514
4.72	0.004436
4.74	0.00436
4.76	0.004285
4.78	0.004212
4.8	0.004141
4.82	0.004071
4.84	0.004003
4.86	0.003936
4.88	0.00387
4.9	0.003806
4.92	0.003743
4.94	0.003681
4.96	0.003621
4.98	0.003562
5	0.003504
5.05	0.003394
5.1	0.003267
5.15	0.003146
5.2	0.00303
5.25	0.00292
5.3	0.002815
5.35	0.002715
5.4	0.002619
5.45	0.002527
5.5	0.002439
5.55	0.002355
5.6	0.002275
5.65	0.002198
5.7	0.002124
5.75	0.002054
5.8	0.001986
5.85	0.001921
5.9	0.001859
5.95	0.001799
6	0.001742
6.05	0.001687
6.1	0.001634
6.15	0.001583
6.2	0.001534
6.25	0.001487
6.3	0.001442
6.35	0.001399
6.4	0.001357
6.45	0.001317
6.5	0.001278
6.55	0.00124
6.6	0.001204
6.65	0.00117
6.7	0.001136
6.75	0.001104
6.8	0.001073
6.85	0.001043
6.9	0.001014
6.95	0.0009862
7	0.0009592